Folder: SustainableConcrete/data (part 2)

File: meta_concrete_proposal_jan2023.csv
Id,Cement,Fly Ash,Slag,Water,HRWR,Coarse Aggregate,Fine Aggregate
0,501.71,146.304,246.832,267.979,67.0127,1525.23,1147.23
1,593.5597,135.217,263.0925,278.8651,81.12456,1109.65,1488.99
2,316.055,254.494,350.074,319.662,91.68253,1435.6,883.353
3,331.8604,230.625,157.502,351.349,55.8386,1050.1,1457.695
4,457.2594,184.1762,314.369,287.6416,21.50765,1592.74,1355.04
5,417.266,205.241,253.894,288.676,66.06502,1156.4,1348.33
6,441.708,40.2317,287.833,309.3556,1.63411,1484.33,1401.3
7,389.762,222.625,19.5277,128.973,2.780941,1643.6,1293.05
8,329.964,237.262,120.091,146.011,13.7052,1447.24,1543.01

File: meta_mortar_proposal_April2023.csv
,Cement,Fly Ash,Slag,Water,HRWR,Fine Aggregate
0,220.008,54.9916,225.0,100.0,2.11111,1375.0
1,172.035,102.965,225.0,100.0,2.11111,1375.0
2,150.49,129.432,220.079,124.876,2.11111,1375.0
3,228.788,94.39263,176.819,100.0,2.11111,1375.0
4,241.596,62.0742,196.329,112.004,2.11111,1375.0
5,306.095,81.44597,112.459,104.18,2.11111,1375.0
6,255.575,75.83458,168.59,100.0,2.11111,1375.0
7,249.72,78.3558,171.924,100.0,2.11111,1375.0
8,296.486,33.9223,169.592,100.0,2.11111,1375.0

File: meta_mortar_proposal_August2023.csv
,Cement,Fly Ash,Slag,Water,HRWR,Fine Aggregate
0,82.65986,7.896844e-11,867.34,332.5,4.27907,925.0
1,126.401,10.8505,297.8041,152.27,4.27907,1439.94
2,0.004525815,1.94778e-10,899.0777,314.679,4.27907,975.9177
3,97.13802,2.29421,382.55,168.694,4.27907,1393.02
4,37.159,32.9537,473.9207,190.412,4.27907,1330.97
5,145.5541,10.0576,585.658,259.4444,4.27907,1133.73

File: meta_mortar_proposal_Feb2023.csv
,Cement,Fly Ash,Slag,Water,HRWR,Fine Aggregate
0,397.1704,0.0,102.8296,207.2848,1.33333,1375.0
1,377.256,122.744,0.0,178.1134,1.33333,1375.0
2,371.4286,0.0,128.5714,222.5441,1.33333,1375.0
3,415.4077,84.5923,0.0,176.1032,1.33333,1375.0
4,250.2285,0.0,249.7715,198.4364,1.33333,1375.0
5,350.0,3.748114e-19,150.0,100.0,1.33333,1375.0
6,308.6762,21.81095,169.513,100.0,1.33333,1375.0
7,272.203,32.20387,195.5936,100.0,1.33333,1375.0
8,208.114,88.50898,203.377,100.0,1.33333,1375.0

File: meta_mortar_proposal_Jan2023.csv
,Cement,Fly Ash,Slag,Water,Fine Aggregate
0,265.009,35.4298,199.561,104.782,1375.0
1,161.29,164.9139,173.796,119.387,1375.0
2,258.113,134.068,107.82,224.294,1375.0
3,238.022,165.92,96.05734,131.0472,1375.0
4,159.429,160.605,179.965,175.091,1375.0
5,341.1126,118.873,40.0148,116.222,1375.0
6,327.147,24.609,148.244,191.856,1375.0
7,239.121,38.8618,222.017,238.449,1375.0
8,199.298,123.165,177.537,139.335,1375.0

File: meta_mortar_proposal_July2023.csv
,Cement,Fly Ash,Slag,Water,HRWR,Fine Aggregate
0,321.172,0.0,0.0,20.0,3.37037,1553.83
1,171.6308,14.08038,0.0340229,20.0,3.37037,1689.25
2,270.852,4.52802,45.9285,20.0,3.37037,1553.69
3,427.8423,98.85646,233.0352,20.0,3.37037,1115.27
4,82.6698,136.3702,68.35949,20.0,3.37037,1587.6
5,375.053,20.4097,154.313,20.0,3.37037,1325.22
6,40.92946,193.895,149.057,40.8563,3.37037,1491.12
7,72.25656,54.3151,51.43225,21.1849,3.37037,1697
8,192.008,13.24406,157.899,20.8563,3.37037,1511.85
9,130.321,120.417,80.78552,24.4277,3.37037,1543.48
10,586.8987,144.62,132.8451,24.1043,3.37037,1010.64
11,528.6626,319.04,35.8971,24.7215,3.37037,991.4