Folder: SustainableConcrete/data

Note: README.md
# Sustainable Concrete via Bayesian Optimization

The goal of the repository is to invite researchers and pracitioners
in both machine learning and civil engineering to collaborate on making
concrete production more sustainable.
Responsible for up to 8% of global carbon dioxide emissions yearly,
compared to less than 3% for all air travel,
concrete production needs to be decarbonized to achieve
a sustainable future.

This package contains probabilistic models and data for the
1) compressive strength of concrete / mortar and
2) the associated global warming potential (GWP),

as a function of their composition, consisting of
cement, slag, water, to name a few basic ingredients.

## Examples
TODO

## Models
TODO

## License
`SustainableConcrete` is MIT licensed, as found in the LICENSE file.

File: compressive_strength.csv
Mix Name,Description,Mortar or Concrete,Material Source,Binder (kg/m3),Cement (kg/m3),Fly Ash (kg/m3),Slag (kg/m3),Clay0 (kg/m3),Clay1 (kg/m3),Clay2 (kg/m3),w/b,Water (kg/m3),MRWR (kg/m3),HRWR (kg/m3),HRWR (oz/cwt binder),VMA (oz/cwt),AE (oz/cwt),Fine Aggregate (kg/m3),Coarse Aggregates (kg/m3),Temp (C),Time,GWP,Strength1 (psi),Strength2 (psi),Strength3 (psi),Strength (Mean),Strength (Std),# of measurements,Cement replacement (ratio),Slump (in),Cost Factor
Mix 0,1_0_,Mortar,0,666.67,353.33,46.67,266.67,0,0,0,0.21,140,0,6.67,16,0,0,1833,0,22,1,321.57,5098,4960,4943,5000,85,3,0.47,0,576
Mix 1,1_1_,Mortar,0,666.67,214.67,220,232,0,0,0,0.24,159,0,4,10,0,0,1833,0,22,1,209.2,3295,3475,3550,3440,131,3,0.68,0,444.27
Mix 2,1_2_,Mortar,0,666.67,344,178.67,144,0,0,0,0.45,299,0,0,0,0,0,1833,0,22,1,284.69,1380,1478,1660,1506,142,3,0.48,0,494.93
Mix 3,1_3_,Mortar,0,666.67,212,214.67,240,0,0,0,0.26,175,0,0,0,0,0,1833,0,22,1,194.01,2883,3278,3183,3114,206,3,0.68,0,446.93
Mix 4,1_4_,Mortar,0,666.67,317.33,221.33,128,0,0,0,0.35,233,0,0,0,0,0,1833,0,22,1,263.93,3235,2885,2595,2905,320,3,0.52,0,464
Mix 5,1_5_,Mortar,0,666.67,454.67,158.67,53.33,0,0,0,0.23,155,0,4,10,0,0,1833,0,22,1,375.06,6978,6285,5575,6279,701,3,0.32,0,529.07
Mix 6,1_6_,Mortar,0,666.67,436,33.33,197.33,0,0,0,0.38,256,0,0,0,0,0,1833,0,22,1,355.1,3225,3570,3438,3411,174,3,0.35,0,600.53
Mix 7,1_7_,Mortar,0,666.67,318.67,52,296,0,0,0,0.48,317,0,0,0,0,0,1833,0,22,1,274.84,1608,1725,1645,1659,60,3,0.52,0,565.87
Mix 8,1_8_,Mortar,0,666.67,265.33,164,237.33,0,0,0,0.28,185,0,1.33,3,0,0,1833,0,22,1,237.52,3708,3393,3495,3532,161,3,0.6,0,488
Mix 9,2_0_,Mortar,0,666.67,529.6,0,137.07,0,0,0,0.41,276,0,0,0,0,0,1833,0,22,1,420.58,2995,3173,3653,3273,340,3,0.21,0,639.25
Mix 10,2_1_,Mortar,0,666.67,503.07,163.6,0,0,0,0,0.36,237,0,0,0,0,0,1833,0,22,1,393.12,4123,4270,3925,4106,173,3,0.25,0,535.79
Mix 11,2_2_,Mortar,0,666.67,495.2,0,171.47,0,0,0,0.45,297,0,0,0,0,0,1833,0,22,1,396.8,3025,3180,2975,3060,107,3,0.26,0,632.37
Mix 12,2_3_,Mortar,0,666.67,553.87,112.8,0,0,0,0,0.35,235,0,0,0,0,0,1833,0,22,1,430.5,4555,4025,4625,4402,328,3,0.17,0,576.43
Mix 13,2_4_,Mortar,0,666.67,333.6,0,333.07,0,0,0,0.4,265,0,0,0,0,0,1833,0,22,1,287.9,2320,2510,2065,2298,223,3,0.5,0,600.05
Mix 14,2_5_,Mortar,0,666.67,466.67,0,200,0,0,0,0.2,133,0,8.67,21,0,0,1833,0,22,1,408.54,9095,8013,5605,7571,1786,3,0.3,0,626.67
Mix 15,2_6_,Mortar,0,666.67,411.6,29.07,226,0,0,0,0.2,133,0,8.67,21,0,0,1833,0,22,1,369.69,6590,5788,5768,6048,469,3,0.38,0,598.21
Mix 16,2_7_,Mortar,0,666.67,362.93,42.93,260.8,0,0,0,0.2,133,0,8.67,21,0,0,1833,0,22,1,335.74,6295,6695,6115,6368,297,3,0.46,0,580.16
Mix 17,2_8_,Mortar,0,666.67,277.47,118,271.2,0,0,0,0.2,133,0,8.67,21,0,0,1833,0,22,1,273.23,5670,4885,4423,4993,631,3,0.58,0,518.03
Mix 18,3_0_,Mortar,0,666.67,200.67,172.53,293.47,0,0,0,0.25,167,0,3.33,8,0,0,1833,0,22,1,200.1,3035,3063,3218,3105,99,3,0.7,0,469.95
Mix 19,3_1_,Mortar,0,666.67,322.13,82.8,261.73,0,0,0,0.22,149,0,6.67,16,0,0,1833,0,22,1,298.65,5930,5988,5410,5776,318,3,0.52,0,548.08
Mix 20,3_2_,Mortar,0,666.67,293.33,73.33,300,0,0,0,0.2,133,0,8.67,21,0,0,1833,0,22,1,286.59,5008,4363,4178,4516,436,3,0.56,0,548
Mix 21,3_3_,Mortar,0,666.67,229.33,137.33,300,0,0,0,0.2,133,0,8.67,21,0,0,1833,0,22,1,239.68,4093,3250,3960,3768,453,3,0.66,0,496.8
Mix 22,3_4_,Mortar,0,666.67,395.33,45.2,226.13,0,0,0,0.2,133,0,8.67,21,0,0,1833,0,22,1,357.2,5943,6130,4888,5654,670,3,0.41,0,585.28
Mix 23,3_5_,Mortar,0,666.67,305.07,125.87,235.73,0,0,0,0.2,133,0,8.67,21,0,0,1833,0,22,1,291.83,4785,5168,4665,4873,263,3,0.54,0,518.83
Mix 24,3_6_,Mortar,0,666.67,408.13,108.53,150,0,0,0,0.21,139,0,8.67,21,0,0,1833,0,22,1,362.5,5460,4763,5503,5242,415,3,0.39,0,549.84
Mix 25,3_7_,Mortar,0,666.67,340.8,101.07,224.8,0,0,0,0.2,133,0,8.67,21,0,0,1833,0,22,1,317.6,4793,5140,4883,4939,180,3,0.49,0,540.85
Mix 26,3_8_,Mortar,0,533.47,272.67,80.93,179.87,0,0,0,0.25,133,0,8.67,26,0,0,1833,0,22,1,261.38,3093,2825,3090,3003,154,3,0.49,0,432.75
Mix 27,3S_0_3_3 variant,Mortar,0,666.67,229.33,137.33,300,0,0,0,0.3,200,0,0,0,0,0,1833,0,22,1,209.07,1983,2235,2305,2174,169,3,0.66,0,496.8
Mix 28,3S_1_3_3 variant,Mortar,0,666.67,229.33,300,137.33,0,0,0,0.3,200,0,0,0,0,0,1833,0,22,5,199.94,5035,5485,4388,4969,551,3,0.66,0,399.2
Mix 29,3S_2_3_0variant,Mortar,0,533.33,160.53,138,234.8,0,0,0,0.31,167,0,3.33,10,0,0,1967,0,22,5,162.86,3315,3423,3583,3440,135,3,0.7,0,375.97
Mix 30,3S_3_3_0variant,Mortar,0,800,240.8,207.07,352.13,0,0,0,0.21,167,0,3.33,7,0,0,1700,0,22,5,236.28,9275,7670,7355,8100,1030,3,0.7,0,563.92
Mix 31,C0_2_6 coldtemp,Mortar,0,668,412,29.33,226.67,0,0,0,0.2,133,0,8.67,21,0,0,1833,0,4.5,5,369.69,4963,7023,6433,6140,1061,3,0.38,0,599.2
Mix 32,C1_2_7 coldtemp,Mortar,0,666.67,362.67,42.67,261.33,0,0,0,0.2,133,0,8.67,21,0,0,1833,0,4.5,5,335.74,7015,6338,5510,6288,754,3,0.46,0,580.27
Mix 33,C2_2_8 coldtemp,Mortar,0,666.67,277.33,118.67,270.67,0,0,0,0.2,133,0,8.67,21,0,0,1833,0,4.5,5,273.23,4625,4565,3775,4322,474,3,0.58,0,517.6
Mix 34,C3_3_0 coldtemp,Mortar,0,666.67,201.33,172,293.33,0,0,0,0.25,167,0,3.33,8,0,0,1833,0,4.5,5,200.1,2953,3145,3190,3096,126,3,0.7,0,470.4
Mix 35,C4_3_3 coldtemp,Mortar,0,666.67,229.33,137.33,300,0,0,0,0.2,133,0,8.67,21,0,0,1833,0,4.5,5,239.68,4550,4129,5808,4829,874,3,0.66,0,496.8
Mix 36,C5_3_4 coldtemp,Mortar,0,668,396,45.33,226.67,0,0,0,0.2,133,0,8.67,21,0,0,1833,0,4.5,5,357.2,7403,6373,6995,6924,519,3,0.41,0,586.4
Mix 37,C6_3_7 coldtemp,Mortar,0,668,341.33,101.33,225.33,0,0,0,0.2,133,0,8.67,21,0,0,1833,0,4.5,5,317.6,6185,5575,5648,5803,333,3,0.49,0,541.87
Mix 38,4_0_,Mortar,0,400,400,0,0,0,0,0,0.2,80,0,10.67,43,0,0,2100,0,22,5,348.19,3808,2998,4178,3661,604,3,0,0,400
Mix 39,4_1_,Mortar,0,229.33,229.33,0,0,0,0,0,0.2,45,0,13.33,93,0,0,2271,0,22,5,228.71,1538,1220,1220,1326,184,3,0,0,229.33
Mix 40,4_2_,Mortar,0,209.33,122.67,32,54.67,0,0,0,0.2,43,0,10.67,82,0,0,2289,0,22,5,143.17,778,760,760,766,10,3,0.41,0,172.8
Mix 41,4_3_,Mortar,0,170.67,97.33,2.67,70.67,0,0,0,0.48,83,0,10.67,100,0,0,2329,0,22,5,123.97,505,613,493,537,66,3,0.43,0,154.4
Mix 42,4_4_,Mortar,0,476,314.67,112,49.33,0,0,0,0.24,116,0,10.67,36,0,0,2025,0,22,5,289.91,5315,5428,4700,5148,392,3,0.34,0,376.53
Mix 43,4_5_,Mortar,0,417.33,366.67,25.33,25.33,0,0,0,0.2,84,0,10.67,41,0,0,2083,0,22,5,325.21,5205,5005,4363,4858,440,3,0.12,0,392
Mix 44,4_6_,Mortar,0,144,66.67,68,9.33,0,0,0,0.31,45,0,13.33,148,0,0,2357,0,22,28,106.66,450,628,510,529,90,3,0.54,0,87.73
Mix 45,4_7_,Mortar,0,498.67,498.67,0,0,0,0,0,0.2,100,0,10.67,34,0,0,2001,0,22,28,422.64,8015,9528,7823,8455,934,3,0,0,498.67
Mix 46,4_8_,Mortar,0,189.33,160,13.33,16,0,0,0,0.34,64,0,10.67,90,0,0,2311,0,22,28,167.49,758,1005,773,845,139,3,0.15,0,175.47
Mix 47,4_9_,Mortar,0,489.33,334.67,104,50.67,0,0,0,0.2,99,0,10.67,35,0,0,2011,0,22,28,305.08,8438,9290,7610,8446,840,3,0.32,0,396
Mix 48,4_10_,Mortar,0,952,886.67,9.33,56,0,0,0,0.26,249,0,2.67,4,0,0,1549,0,22,28,694.58,8068,7890,8748,8235,453,3,0.07,0,933.33
Mix 49,4_11_,Mortar,0,978.67,894.67,25.33,58.67,0,0,0,0.25,240,0,2.67,4,0,0,1521,0,22,28,701.42,11155,10503,9685,10448,737,3,0.09,0,946.67
Mix 50,5_0_3S_3,Mortar,0,800,240.78,207.09,352.13,0,0,0,0.36,287,0,0,0,0,0,1700,0,22,28,224.36,6860,6543,7678,7027,586,3,0.7,0,563.9
Mix 51,5_1_3_3,Mortar,0,666.67,229.38,137.29,300,0,0,0,0.35,233,0,0,0,0,0,1833,0,22,28,209.07,7233,8388,7365,7662,632,3,0.66,0,496.84
[...]
,,,,,,,,,,,,,,,,,,,,,,,,,,,,,,,
,,,,,,,,,,,,,,,,,,,,,,,,,,,,,,,
,,,,,,,,,,,,,,,,,,,,,,,,,,,,,,,
,,,,,,,,,,,,,,,,,,,,,,,,,,,,,,,
,,,,,,,,,,,,,,,,,,,,,,,,,,,,,,,
,,,,,,,,,,,,,,,,,,,,,,,,,,,,,,,
,,,,,,,,,,,,,,,,,,,,,,,,,,,,,,,
,,,,,,,,,,,,,,,,,,,,,,,,,,,,,,,
,,,,,,,,,,,,,,,,,,,,,,,,,,,,,,,
,,,,,,,,,,,,,,,,,,,,,,,,,,,,,,,
,,,,,,,,,,,,,,,,,,,,,,,,,,,,,,,
,,,,,,,,,,,,,,,,,,,,,,,,,,,,,,,
,,,,,,,,,,,,,,,,,,,,,,,,,,,,,,,
,,,,,,,,,,,,,,,,,,,,,,,,,,,,,,,
,,,,,,,,,,,,,,,,,,,,,,,,,,,,,,,
,,,,,,,,,,,,,,,,,,,,,,,,,,,,,,,
,,,,,,,,,,,,,,,,,,,,,,,,,,,,,,,
,,,,,,,,,,,,,,,,,,,,,,,,,,,,,,,
,,,,,,,,,,,,,,,,,,,,,,,,,,,,,,,
,,,,,,,,,,,,,,,,,,,,,,,,,,,,,,,
,,,,,,,,,,,,,,,,,,,,,,,,,,,,,,,
,,,,,,,,,,,,,,,,,,,,,,,,,,,,,,,
,,,,,,,,,,,,,,,,,,,,,,,,,,,,,,,
,,,,,,,,,,,,,,,,,,,,,,,,,,,,,,,
,,,,,,,,,,,,,,,,,,,,,,,,,,,,,,,
,,,,,,,,,,,,,,,,,,,,,,,,,,,,,,,
,,,,,,,,,,,,,,,,,,,,,,,,,,,,,,,
,,,,,,,,,,,,,,,,,,,,,,,,,,,,,,,
,,,,,,,,,,,,,,,,,,,,,,,,,,,,,,,
,,,,,,,,,,,,,,,,,,,,,,,,,,,,,,,
,,,,,,,,,,,,,,,,,,,,,,,,,,,,,,,
,,,,,,,,,,,,,,,,,,,,,,,,,,,,,,,
,,,,,,,,,,,,,,,,,,,,,,,,,,,,,,,
,,,,,,,,,,,,,,,,,,,,,,,,,,,,,,,
,,,,,,,,,,,,,,,,,,,,,,,,,,,,,,,
,,,,,,,,,,,,,,,,,,,,,,,,,,,,,,,
,,,,,,,,,,,,,,,,,,,,,,,,,,,,,,,
,,,,,,,,,,,,,,,,,,,,,,,,,,,,,,,
,,,,,,,,,,,,,,,,,,,,,,,,,,,,,,,
,,,,,,,,,,,,,,,,,,,,,,,,,,,,,,,
,,,,,,,,,,,,,,,,,,,,,,,,,,,,,,,
,,,,,,,,,,,,,,,,,,,,,,,,,,,,,,,
,,,,,,,,,,,,,,,,,,,,,,,,,,,,,,,
,,,,,,,,,,,,,,,,,,,,,,,,,,,,,,,
,,,,,,,,,,,,,,,,,,,,,,,,,,,,,,,
,,,,,,,,,,,,,,,,,,,,,,,,,,,,,,,
,,,,,,,,,,,,,,,,,,,,,,,,,,,,,,,
,,,,,,,,,,,,,,,,,,,,,,,,,,,,,,,
,,,,,,,,,,,,,,,,,,,,,,,,,,,,,,,
,,,,,,,,,,,,,,,,,,,,,,,,,,,,,,,
,,,,,,,,,,,,,,,,,,,,,,,,,,,,,,,
,,,,,,,,,,,,,,,,,,,,,,,,,,,,,,,
,,,,,,,,,,,,,,,,,,,,,,,,,,,,,,,
,,,,,,,,,,,,,,,,,,,,,,,,,,,,,,,
,,,,,,,,,,,,,,,,,,,,,,,,,,,,,,,
,,,,,,,,,,,,,,,,,,,,,,,,,,,,,,,
,,,,,,,,,,,,,,,,,,,,,,,,,,,,,,,
,,,,,,,,,,,,,,,,,,,,,,,,,,,,,,,
,,,,,,,,,,,,,,,,,,,,,,,,,,,,,,,
,,,,,,,,,,,,,,,,,,,,,,,,,,,,,,,
,,,,,,,,,,,,,,,,,,,,,,,,,,,,,,,
,,,,,,,,,,,,,,,,,,,,,,,,,,,,,,,
,,,,,,,,,,,,,,,,,,,,,,,,,,,,,,,
,,,,,,,,,,,,,,,,,,,,,,,,,,,,,,,
,,,,,,,,,,,,,,,,,,,,,,,,,,,,,,,
,,,,,,,,,,,,,,,,,,,,,,,,,,,,,,,
,,,,,,,,,,,,,,,,,,,,,,,,,,,,,,,
,,,,,,,,,,,,,,,,,,,,,,,,,,,,,,,
,,,,,,,,,,,,,,,,,,,,,,,,,,,,,,,
,,,,,,,,,,,,,,,,,,,,,,,,,,,,,,,
,,,,,,,,,,,,,,,,,,,,,,,,,,,,,,,
,,,,,,,,,,,,,,,,,,,,,,,,,,,,,,,
,,,,,,,,,,,,,,,,,,,,,,,,,,,,,,,
,,,,,,,,,,,,,,,,,,,,,,,,,,,,,,,
,,,,,,,,,,,,,,,,,,,,,,,,,,,,,,,
,,,,,,,,,,,,,,,,,,,,,,,,,,,,,,,
,,,,,,,,,,,,,,,,,,,,,,,,,,,,,,,
,,,,,,,,,,,,,,,,,,,,,,,,,,,,,,,
,,,,,,,,,,,,,,,,,,,,,,,,,,,,,,,
,,,,,,,,,,,,,,,,,,,,,,,,,,,,,,,
,,,,,,,,,,,,,,,,,,,,,,,,,,,,,,,
,,,,,,,,,,,,,,,,,,,,,,,,,,,,,,,
,,,,,,,,,,,,,,,,,,,,,,,,,,,,,,,
,,,,,,,,,,,,,,,,,,,,,,,,,,,,,,,
,,,,,,,,,,,,,,,,,,,,,,,,,,,,,,,
,,,,,,,,,,,,,,,,,,,,,,,,,,,,,,,
,,,,,,,,,,,,,,,,,,,,,,,,,,,,,,,
,,,,,,,,,,,,,,,,,,,,,,,,,,,,,,,
,,,,,,,,,,,,,,,,,,,,,,,,,,,,,,,
,,,,,,,,,,,,,,,,,,,,,,,,,,,,,,,
,,,,,,,,,,,,,,,,,,,,,,,,,,,,,,,
,,,,,,,,,,,,,,,,,,,,,,,,,,,,,,,
,,,,,,,,,,,,,,,,,,,,,,,,,,,,,,,
,,,,,,,,,,,,,,,,,,,,,,,,,,,,,,,
,,,,,,,,,,,,,,,,,,,,,,,,,,,,,,,
,,,,,,,,,,,,,,,,,,,,,,,,,,,,,,,
,,,,,,,,,,,,,,,,,,,,,,,,,,,,,,,
,,,,,,,,,,,,,,,,,,,,,,,,,,,,,,,
,,,,,,,,,,,,,,,,,,,,,,,,,,,,,,,
,,,,,,,,,,,,,,,,,,,,,,,,,,,,,,,
,,,,,,,,,,,,,,,,,,,,,,,,,,,,,,,
,,,,,,,,,,,,,,,,,,,,,,,,,,,,,,,
,,,,,,,,,,,,,,,,,,,,,,,,,,,,,,,
,,,,,,,,,,,,,,,,,,,,,,,,,,,,,,,
,,,,,,,,,,,,,,,,,,,,,,,,,,,,,,,
,,,,,,,,,,,,,,,,,,,,,,,,,,,,,,,
,,,,,,,,,,,,,,,,,,,,,,,,,,,,,,,
,,,,,,,,,,,,,,,,,,,,,,,,,,,,,,,
,,,,,,,,,,,,,,,,,,,,,,,,,,,,,,,
,,,,,,,,,,,,,,,,,,,,,,,,,,,,,,,
,,,,,,,,,,,,,,,,,,,,,,,,,,,,,,,
,,,,,,,,,,,,,,,,,,,,,,,,,,,,,,,
,,,,,,,,,,,,,,,,,,,,,,,,,,,,,,,
,,,,,,,,,,,,,,,,,,,,,,,,,,,,,,,

File: concrete_strength.csv
Mix ID,Name,Description,Cement,Fly Ash,Slag,Water,HRWR,Fine Aggregate,Time,GWP,Strength (Mean),Strength (Std),# of measurements
Jan_2023_0,,,265,35,200,105,5,1375,1,118,5000,85,3
Jan_2023_0,,,265,35,200,105,5,1375,3,118,7518,305,3
Jan_2023_0,,,265,35,200,105,5,1375,5,118,7318,262,3
Jan_2023_0,,,265,35,200,105,5,1375,28,118,10290,1110,3
Jan_2023_1,,,161,165,174,119,3,1375,1,76,3440,131,3
Jan_2023_1,,,161,165,174,119,3,1375,3,76,5583,791,3
Jan_2023_1,,,161,165,174,119,3,1375,5,76,4897,528,3
Jan_2023_1,,,161,165,174,119,3,1375,28,76,6222,841,3
Jan_2023_2,,,258,134,108,224,0,1375,1,113,1506,142,3
Jan_2023_2,,,258,134,108,224,0,1375,3,113,2918,65,3
Jan_2023_2,,,258,134,108,224,0,1375,5,113,3637,257,3
Jan_2023_2,,,258,134,108,224,0,1375,28,113,6276,655,3
Jan_2023_3,,,159,161,180,131,0,1375,1,74,3114,206,3
Jan_2023_3,,,159,161,180,131,0,1375,3,74,4555,400,3
Jan_2023_3,,,159,161,180,131,0,1375,5,74,4308,313,3
Jan_2023_3,,,159,161,180,131,0,1375,28,74,4433,462,3
Jan_2023_4,,,238,166,96,175,0,1375,1,105,2905,320,3
Jan_2023_4,,,238,166,96,175,0,1375,3,105,4313,375,3
Jan_2023_4,,,238,166,96,175,0,1375,5,105,4428,68,3
Jan_2023_4,,,238,166,96,175,0,1375,28,105,7243,1293,3
Jan_2023_5,,,341,119,40,116,3,1375,1,148,6279,701,3
Jan_2023_5,,,341,119,40,116,3,1375,3,148,7302,485,3
Jan_2023_5,,,341,119,40,116,3,1375,5,148,7368,856,3
Jan_2023_5,,,341,119,40,116,3,1375,28,148,9029,816,3
Jan_2023_6,,,327,25,148,192,0,1375,1,141,3411,174,3
Jan_2023_6,,,327,25,148,192,0,1375,3,141,5008,331,3
Jan_2023_6,,,327,25,148,192,0,1375,5,141,5308,189,3
Jan_2023_6,,,327,25,148,192,0,1375,28,141,6647,412,3
Jan_2023_7,,,239,39,222,238,0,1375,1,106,1659,60,3
Jan_2023_7,,,239,39,222,238,0,1375,3,106,2893,183,3
Jan_2023_7,,,239,39,222,238,0,1375,5,106,3723,224,3
Jan_2023_7,,,239,39,222,238,0,1375,28,106,5786,418,3
Jan_2023_8,,,199,123,178,139,1,1375,1,90,3532,161,3
Jan_2023_8,,,199,123,178,139,1,1375,3,90,5198,235,3
Jan_2023_8,,,199,123,178,139,1,1375,5,90,5568,149,3
Jan_2023_8,,,199,123,178,139,1,1375,28,90,8685,403,3

File: Concrete_Strength_updated_4-10-2023.csv
Mix ID,Name,Description,Cement,Fly Ash,Slag,Water,HRWR,Fine Aggregate,Time,GWP,Strength (Mean),Strength (Std),# of measurements
Jan_2023_0,,,265,35,200,105,5,1375,1,118,5000,85,3
Jan_2023_0,,,265,35,200,105,5,1375,3,118,7518,305,3
Jan_2023_0,,,265,35,200,105,5,1375,5,118,7318,262,3
Jan_2023_0,,,265,35,200,105,5,1375,28,118,10290,1110,3
Jan_2023_1,,,161,165,174,119,3,1375,1,76,3440,131,3
Jan_2023_1,,,161,165,174,119,3,1375,3,76,5583,791,3
Jan_2023_1,,,161,165,174,119,3,1375,5,76,4897,528,3
Jan_2023_1,,,161,165,174,119,3,1375,28,76,6222,841,3
Jan_2023_2,,,258,134,108,224,0,1375,1,113,1506,142,3
Jan_2023_2,,,258,134,108,224,0,1375,3,113,2918,65,3
Jan_2023_2,,,258,134,108,224,0,1375,5,113,3637,257,3
Jan_2023_2,,,258,134,108,224,0,1375,28,113,6276,655,3
Jan_2023_3,,,159,161,180,131,0,1375,1,74,3114,206,3
Jan_2023_3,,,159,161,180,131,0,1375,3,74,4555,400,3
Jan_2023_3,,,159,161,180,131,0,1375,5,74,4308,313,3
Jan_2023_3,,,159,161,180,131,0,1375,28,74,4433,462,3
Jan_2023_4,,,238,166,96,175,0,1375,1,105,2905,320,3
Jan_2023_4,,,238,166,96,175,0,1375,3,105,4313,375,3
Jan_2023_4,,,238,166,96,175,0,1375,5,105,4428,68,3
Jan_2023_4,,,238,166,96,175,0,1375,28,105,7243,1293,3
Jan_2023_5,,,341,119,40,116,3,1375,1,148,6279,701,3
Jan_2023_5,,,341,119,40,116,3,1375,3,148,7302,485,3
Jan_2023_5,,,341,119,40,116,3,1375,5,148,7368,856,3
Jan_2023_5,,,341,119,40,116,3,1375,28,148,9029,816,3
Jan_2023_6,,,327,25,148,192,0,1375,1,141,3411,174,3
Jan_2023_6,,,327,25,148,192,0,1375,3,141,5008,331,3
Jan_2023_6,,,327,25,148,192,0,1375,5,141,5308,189,3
Jan_2023_6,,,327,25,148,192,0,1375,28,141,6647,412,3
Jan_2023_7,,,239,39,222,238,0,1375,1,106,1659,60,3
Jan_2023_7,,,239,39,222,238,0,1375,3,106,2893,183,3
Jan_2023_7,,,239,39,222,238,0,1375,5,106,3723,224,3
Jan_2023_7,,,239,39,222,238,0,1375,28,106,5786,418,3
Jan_2023_8,,,199,123,178,139,1,1375,1,90,3532,161,3
Jan_2023_8,,,199,123,178,139,1,1375,3,90,5198,235,3
Jan_2023_8,,,199,123,178,139,1,1375,5,90,5568,149,3
Jan_2023_8,,,199,123,178,139,1,1375,28,90,8685,403,3
Feb_2023_0,,0,397.1704,0.0,102.8296,207.2848,0,1375.0,1,169,3273.3,340.2,3
Feb_2023_0,,0,397.1704,0.0,102.8296,207.2848,0,1375.0,3,169,4433.3,211.2,3
Feb_2023_0,,0,397.1704,0.0,102.8296,207.2848,0,1375.0,5,169,4708.3,740.8,3
Feb_2023_1,,1,377.256,122.744,0.0,178.1134,0,1375.0,1,161,4105.8,173.1,3
Feb_2023_1,,1,377.256,122.744,0.0,178.1134,0,1375.0,3,161,5081.7,103.9,3
Feb_2023_1,,1,377.256,122.744,0.0,178.1134,0,1375.0,5,161,5665.8,840.6,3
Feb_2023_2,,2,371.4286,0.0,128.5714,222.5441,0,1375.0,1,159,3060.0,106.9,3
Feb_2023_2,,2,371.4286,0.0,128.5714,222.5441,0,1375.0,3,159,4136.7,96.7,3
Feb_2023_2,,2,371.4286,0.0,128.5714,222.5441,0,1375.0,5,159,4672.5,319.0,3
Feb_2023_3,,3,415.4077,84.5923,0.0,176.1032,0,1375.0,1,176,4401.7,328.1,3
Feb_2023_3,,3,415.4077,84.5923,0.0,176.1032,0,1375.0,3,176,5672.5,214.3,3
Feb_2023_3,,3,415.4077,84.5923,0.0,176.1032,0,1375.0,5,176,6100.8,370.5,3
Feb_2023_4,,4,250.2285,0.0,249.7715,198.4364,0,1375.0,1,110,2298.3,223.3,3
Feb_2023_4,,4,250.2285,0.0,249.7715,198.4364,0,1375.0,3,110,4156.7,142.2,3
Feb_2023_4,,4,250.2285,0.0,249.7715,198.4364,0,1375.0,5,110,5126.7,111.4,3
Feb_2023_5,,5,350.0,3.748114E-19,150.0,100.0,6.5,1375.0,1,153,7570.8,1786.4,3
Feb_2023_5,,5,350.0,3.748114E-19,150.0,100.0,6.5,1375.0,3,153,9342.5,1116.4,3
Feb_2023_5,,5,350.0,3.748114E-19,150.0,100.0,6.5,1375.0,5,153,9147.5,551.0,3
Feb_2023_6,,6,308.6762,21.81095,169.513,100.0,6.5,1375.0,1,136,6048.3,469.2,3
Feb_2023_6,,6,308.6762,21.81095,169.513,100.0,6.5,1375.0,3,136,8549.2,1028.8,3
Feb_2023_6,,6,308.6762,21.81095,169.513,100.0,6.5,1375.0,5,136,7696.7,1109.0,3
Feb_2023_7,,7,272.203,32.20387,195.5936,100.0,6.5,1375.0,1,122,6368.3,296.9,3
Feb_2023_7,,7,272.203,32.20387,195.5936,100.0,6.5,1375.0,3,122,8845.8,694.4,3
Feb_2023_7,,7,272.203,32.20387,195.5936,100.0,6.5,1375.0,5,122,10335.0,742.5,3
Feb_2023_8,,8,208.114,88.50898,203.377,100.0,6.5,1375.0,1,96,4992.5,630.7,3
Feb_2023_8,,8,208.114,88.50898,203.377,100.0,6.5,1375.0,3,96,7520.8,317.5,3
Feb_2023_8,,8,208.114,88.50898,203.377,100.0,6.5,1375.0,5,96,8154.2,1206.0,3

File: Concrete_Strength_updated_6-7-2023.csv
Mix ID,Name,Description,Cement,Fly Ash,Slag,Water,HRWR,Fine Aggregate,Time,GWP,Strength (Mean),Strength (Std),# of measurements
Jan_2023_0,,,265,35,200,105,5,1375,1,118,5000,85,3
Jan_2023_0,,,265,35,200,105,5,1375,3,118,7518,305,3
Jan_2023_0,,,265,35,200,105,5,1375,5,118,7318,262,3
Jan_2023_0,,,265,35,200,105,5,1375,28,118,10290,1110,3
Jan_2023_1,,,161,165,174,119,3,1375,1,76,3440,131,3
Jan_2023_1,,,161,165,174,119,3,1375,3,76,5583,791,3
Jan_2023_1,,,161,165,174,119,3,1375,5,76,4897,528,3
Jan_2023_1,,,161,165,174,119,3,1375,28,76,6222,841,3
Jan_2023_2,,,258,134,108,224,0,1375,1,113,1506,142,3
Jan_2023_2,,,258,134,108,224,0,1375,3,113,2918,65,3
Jan_2023_2,,,258,134,108,224,0,1375,5,113,3637,257,3
Jan_2023_2,,,258,134,108,224,0,1375,28,113,6276,655,3
Jan_2023_3,,,159,161,180,131,0,1375,1,74,3114,206,3
Jan_2023_3,,,159,161,180,131,0,1375,3,74,4555,400,3
Jan_2023_3,,,159,161,180,131,0,1375,5,74,4308,313,3
Jan_2023_3,,,159,161,180,131,0,1375,28,74,4433,462,3
Jan_2023_4,,,238,166,96,175,0,1375,1,105,2905,320,3
Jan_2023_4,,,238,166,96,175,0,1375,3,105,4313,375,3
Jan_2023_4,,,238,166,96,175,0,1375,5,105,4428,68,3
Jan_2023_4,,,238,166,96,175,0,1375,28,105,7243,1293,3
Jan_2023_5,,,341,119,40,116,3,1375,1,148,6279,701,3
Jan_2023_5,,,341,119,40,116,3,1375,3,148,7302,485,3
Jan_2023_5,,,341,119,40,116,3,1375,5,148,7368,856,3
Jan_2023_5,,,341,119,40,116,3,1375,28,148,9029,816,3
Jan_2023_6,,,327,25,148,192,0,1375,1,141,3411,174,3
Jan_2023_6,,,327,25,148,192,0,1375,3,141,5008,331,3
Jan_2023_6,,,327,25,148,192,0,1375,5,141,5308,189,3
Jan_2023_6,,,327,25,148,192,0,1375,28,141,6647,412,3
Jan_2023_7,,,239,39,222,238,0,1375,1,106,1659,60,3
Jan_2023_7,,,239,39,222,238,0,1375,3,106,2893,183,3
Jan_2023_7,,,239,39,222,238,0,1375,5,106,3723,224,3
Jan_2023_7,,,239,39,222,238,0,1375,28,106,5786,418,3
Jan_2023_8,,,199,123,178,139,1,1375,1,90,3532,161,3
Jan_2023_8,,,199,123,178,139,1,1375,3,90,5198,235,3
Jan_2023_8,,,199,123,178,139,1,1375,5,90,5568,149,3
Jan_2023_8,,,199,123,178,139,1,1375,28,90,8685,403,3
Feb_2023_0,,,397.1704,0,102.8296,207.2848,0,1375,1,169,3273.3,340.2,3
Feb_2023_0,,,397.1704,0,102.8296,207.2848,0,1375,3,169,4433.3,211.2,3
Feb_2023_0,,,397.1704,0,102.8296,207.2848,0,1375,5,169,4708.3,740.8,3
Feb_2023_0,,,397.1704,0,102.8296,207.2848,0,1375,28,169,6674.2,551.4,3
Feb_2023_1,,,377.256,122.744,0,178.1134,0,1375,1,161,4105.8,173.1,3
Feb_2023_1,,,377.256,122.744,0,178.1134,0,1375,3,161,5081.7,103.9,3
Feb_2023_1,,,377.256,122.744,0,178.1134,0,1375,5,161,5665.8,840.6,3
Feb_2023_1,,,377.256,122.744,0,178.1134,0,1375,28,161,7347.5,1002.5,3
Feb_2023_2,,,371.4286,0,128.5714,222.5441,0,1375,1,159,3060,106.9,3
Feb_2023_2,,,371.4286,0,128.5714,222.5441,0,1375,3,159,4136.7,96.7,3
Feb_2023_2,,,371.4286,0,128.5714,222.5441,0,1375,5,159,4672.5,319,3
Feb_2023_2,,,371.4286,0,128.5714,222.5441,0,1375,28,159,6424.2,716.2,3
Feb_2023_3,,,415.4077,84.5923,0,176.1032,0,1375,1,176,4401.7,328.1,3
Feb_2023_3,,,415.4077,84.5923,0,176.1032,0,1375,3,176,5672.5,214.3,3
Feb_2023_3,,,415.4077,84.5923,0,176.1032,0,1375,5,176,6100.8,370.5,3
Feb_2023_3,,,415.4077,84.5923,0,176.1032,0,1375,28,176,7659.2,641.3,3
Feb_2023_4,,,250.2285,0,249.7715,198.4364,0,1375,1,110,2298.3,223.3,3
Feb_2023_4,,,250.2285,0,249.7715,198.4364,0,1375,3,110,4156.7,142.2,3
Feb_2023_4,,,250.2285,0,249.7715,198.4364,0,1375,5,110,5126.7,111.4,3
Feb_2023_4,,,250.2285,0,249.7715,198.4364,0,1375,28,110,7434.2,193.6,3
Feb_2023_5,,,350,0,150,100,6.5,1375,1,153,7570.8,1786.4,3
Feb_2023_5,,,350,0,150,100,6.5,1375,3,153,9342.5,1116.4,3
Feb_2023_5,,,350,0,150,100,6.5,1375,5,153,9147.5,551,3
Feb_2023_5,,,350,0,150,100,6.5,1375,28,153,10800.8,1841.1,3
Feb_2023_6,,,308.6762,21.81095,169.513,100,6.5,1375,1,136,6048.3,469.2,3
Feb_2023_6,,,308.6762,21.81095,169.513,100,6.5,1375,3,136,8549.2,1028.8,3
Feb_2023_6,,,308.6762,21.81095,169.513,100,6.5,1375,5,136,7696.7,1109,3
Feb_2023_6,,,308.6762,21.81095,169.513,100,6.5,1375,28,136,10181.7,1462,3
Feb_2023_7,,,272.203,32.20387,195.5936,100,6.5,1375,1,122,6368.3,296.9,3
Feb_2023_7,,,272.203,32.20387,195.5936,100,6.5,1375,3,122,8845.8,694.4,3
Feb_2023_7,,,272.203,32.20387,195.5936,100,6.5,1375,5,122,10335,742.5,3
Feb_2023_7,,,272.203,32.20387,195.5936,100,6.5,1375,28,122,10148.3,303.4,3
Feb_2023_8,,,208.114,88.50898,203.377,100,6.5,1375,1,96,4992.5,630.7,3
Feb_2023_8,,,208.114,88.50898,203.377,100,6.5,1375,3,96,7520.8,317.5,3
Feb_2023_8,,,208.114,88.50898,203.377,100,6.5,1375,5,96,8154.2,1206,3
Feb_2023_8,,,208.114,88.50898,203.377,100,6.5,1375,28,96,11198.3,427.4,3
3_2023_0,,,150.5,129.4,220.1,124.9,2.5,1375,1,71,3105,98.4,3
3_2023_0,,,150.5,129.4,220.1,124.9,2.5,1375,3,71,4465.8,222.2,3
3_2023_0,,,150.5,129.4,220.1,124.9,2.5,1375,5,71,5439.2,8.8,3
3_2023_0,,,150.5,129.4,220.1,124.9,2.5,1375,28,71,8588,953,3
3_2023_1,,,241.6,62.1,196.3,112,5,1375,1,109,5775.83,318.1,3
3_2023_1,,,241.6,62.1,196.3,112,5,1375,3,109,7818.3,470.4,3
3_2023_1,,,241.6,62.1,196.3,112,5,1375,5,109,9211.7,578,3
3_2023_1,,,241.6,62.1,196.3,112,5,1375,28,109,11900,1099,3
3_2023_2,,,220,55,225,100,6.5,1375,1,101,4515.83,435.7,3
3_2023_2,,,220,55,225,100,6.5,1375,3,101,7935.8,208.7,3
3_2023_2,,,220,55,225,100,6.5,1375,5,101,8277.5,536.4,3
3_2023_2,,,220,55,225,100,6.5,1375,28,101,10042.5,1118,3
3_2023_3,,,172,103,225,100,6.5,1375,1,82,3767.5,453,3
3_2023_3,,,172,103,225,100,6.5,1375,3,82,6198.3,649.2,3
3_2023_3,,,172,103,225,100,6.5,1375,5,82,8219.2,1707.5,3
3_2023_3,,,172,103,225,100,6.5,1375,28,82,9226,522.8,3
3_2023_4,,,296.5,33.9,169.6,100,6.5,1375,1,131,5653.3,669.8,3
3_2023_4,,,296.5,33.9,169.6,100,6.5,1375,3,131,7803.3,364.1,3
3_2023_4,,,296.5,33.9,169.6,100,6.5,1375,5,131,8941.7,773.4,3
3_2023_4,,,296.5,33.9,169.6,100,6.5,1375,28,131,9695.8,790.1,3
3_2023_5,,,228.8,94.4,176.8,100,6.5,1375,1,104,4872.5,262.4,3
3_2023_5,,,228.8,94.4,176.8,100,6.5,1375,3,104,7519.2,406.5,3
3_2023_5,,,228.8,94.4,176.8,100,6.5,1375,5,104,7398.3,928.1,3
3_2023_5,,,228.8,94.4,176.8,100,6.5,1375,28,104,10305,590.1,3
3_2023_6,,,306.1,81.4,112.5,104.2,6.5,1375,1,135,5241.7,415.5,3
3_2023_6,,,306.1,81.4,112.5,104.2,6.5,1375,3,135,6857.5,108.7,3
3_2023_6,,,306.1,81.4,112.5,104.2,6.5,1375,5,135,8581.7,1194.3,3
3_2023_6,,,306.1,81.4,112.5,104.2,6.5,1375,28,135,9224.2,1749.1,3
3_2023_7,,,255.6,75.8,168.6,100,6.5,1375,1,115,4938.3,180.4,3
3_2023_7,,,255.6,75.8,168.6,100,6.5,1375,3,115,7249.2,877.9,3
3_2023_7,,,255.6,75.8,168.6,100,6.5,1375,5,115,7677.5,595.4,3
3_2023_7,,,255.6,75.8,168.6,100,6.5,1375,28,115,10568,1580,3
3_2023_8,,,204.4604,60.66766,134.872,100,6.5,1375,1,90,3002.5,153.7,3
3_2023_8,,,204.4604,60.66766,134.872,100,6.5,1375,3,90,4947.5,726.1,3
3_2023_8,,,204.4604,60.66766,134.872,100,6.5,1375,5,90,5823.1,589.7,3
3_2023_8,,,204.4604,60.66766,134.872,100,6.5,1375,28,90,7950,429,3

File: meta_cold_mortar_proposal_June2023.csv
,Cement,Fly Ash,Slag,Water,HRWR,Fine Aggregate
0,308.6762,21.81095,169.513,100.0,6.5,1375.0
1,272.203,32.20387,195.5936,100.0,6.5,1375.0
2,208.114,88.50898,203.377,100.0,6.5,1375.0
3,150.5,129.4,220.1,124.9,2.5,1375.0
4,172.0,103.0,225.0,100.0,6.5,1375.0
5,296.5,33.9,169.6,100.0,6.5,1375.0
6,255.6,75.8,168.6,100.0,6.5,1375.0

File: meta_cold_mortar_proposal_September2023.csv
,Cement,Fly Ash,Slag,Water,HRWR,Fine Aggregate,Curing Temp (Â°C)
0,234.0,0.0,697.0,326.0,3.8,944.0,4.5
1,603.0,65.0,209.0,438.0,3.8,998.0,4.5
2,442.0,17.0,457.0,449.0,3.8,959.0,4.5
3,303.0,122.0,217.0,235.0,3.8,1234.0,4.5
4,701.0,2.0,109.0,334.0,3.8,1063.0,4.5
5,627.0,110.0,80.0,372.0,3.8,1058.0,4.5